{
  "resourceType": "Bundle",
  "type": "collection",
  "id": "123",
  "timestamp": "2024-05-02T15:30:00Z",
  "meta": {
    "profile": [
      "http://argo.run/cgm/StructureDefinition/cgm-data-submission-bundle"
    ],
    "tag": [ {"system": "http://argo.run/cgm/CodeSystem/cgm", "code": "cgm-data-submission-bundle"} ]
  },
  "entry": [
    {
      "resource": {
        "resourceType": "Patient",
        "id": "example-patient",
        "identifier": [
          {
            "system": "http://acme.com/patient",
            "value": "12345"
          }
        ],
        "name": [
          {
            "family": "Doe",
            "given": [
              "John"
            ]
          }
        ],
        "gender": "male",
        "birthDate": "1990-01-01"
      }
    },
    {
      "resource": {
        "resourceType": "Device",
        "id": "example-cgm-device",
        "deviceName": [
          {
            "name": "Acme CGM Device",
            "type": "user-friendly-name"
          }
        ],
        "serialNumber": "123456789",
        "identifier": [
          {
            "system": "http://acme.com/cgm-devices",
            "value": "ACME-CGM-0001"
          }
        ]
      }
    },
    {
      "resource": {
        "resourceType": "Observation",
        "id": "example-cgm-sensor-reading-mass",
        "status": "final",
        "category": [{
          "coding": [{
            "system": "http://terminology.hl7.org/CodeSystem/observation-category",
            "code": "laboratory",
            "display": "Laboratory"
          }]
        }],
        "subject": {"display": "Example Patient"},
        "code": {
          "coding": [
            {
              "system": "http://loinc.org",
              "code": "99504-3"
            }
          ]
        },
        "effectiveDateTime": "2024-05-02T10:15:00Z",
        "valueQuantity": {
          "value": 120,
          "unit": "mg/dl",
          "system": "http://unitsofmeasure.org",
          "code": "mg/dL"
        }
      }
    },
    {
      "resource": {
        "resourceType": "Observation",
        "id": "example-cgm-sensor-reading-molar",
        "status": "final",
        "category": [{
          "coding": [{
            "system": "http://terminology.hl7.org/CodeSystem/observation-category",
            "code": "laboratory",
            "display": "Laboratory"
          }]
        }],
        "subject": {"display": "Example Patient"},
 
        "code": {
          "coding": [
            {
              "system": "http://loinc.org",
              "code": "14745-4"
            }
          ]
        },
        "effectiveDateTime": "2024-05-02T10:15:00Z",
        "valueQuantity": {
          "value": 6.67,
          "unit": "mmol/l",
          "system": "http://unitsofmeasure.org",
          "code": "mmol/L"
        }
      }
    },
    {
      "resource": {
        "resourceType": "Observation",
        "id": "example-cgm-summary",
        "status": "final",
        "code": {
          "coding": [
            {
              "system": "http://argo.run/cgm/CodeSystem/cgm",
              "code": "cgm-summary",
              "display": "CGM Summary"
            }
          ]
        },
        "effectivePeriod": {
          "start": "2024-02-02",
          "end": "2024-05-02"
        },
        "category": [
          {
            "coding": [
              {
                "system": "http://terminology.hl7.org/CodeSystem/observation-category",
                "code": "laboratory",
                "display": "Laboratory"
              }
            ]
          }
        ],
        "subject": {"display": "Example Patient"},
 
        "hasMember": [
          {
            "reference": "urn:uuid:a307da93-0850-4695-a904-33dfbdfbb3f5"
          },
          {
            "reference": "urn:uuid:9faa6e2b-8cea-4b77-9af3-8b1333f8f656"
          },
          {
            "reference": "urn:uuid:0220441c-ff51-406c-ba91-97beab7d766c"
          },
          {
            "reference": "urn:uuid:0cc2cef5-1507-44fd-8799-1a1c604fa20b"
          },
          {
            "reference": "urn:uuid:3ae0bdd4-bd60-4d35-9d42-49bc4dece7e0"
          },
          {
            "reference": "urn:uuid:c59ae40e-e242-4033-917f-ad5767171466"
          },
          {
            "reference": "urn:uuid:f7f769ce-b596-4915-bd83-bde74f55d60a"
          },
          {
            "reference": "urn:uuid:c8117e72-c160-487b-9411-dce25df9e2e4"
          },
          {
            "reference": "urn:uuid:c3b69f26-6935-482f-b526-5c83a2409096"
          },
          {
            "reference": "urn:uuid:50008781-f5a0-4a4c-882d-7c9c508352ef"
          }
        ]
      }
    },
    {
      "resource": {
        "resourceType": "Observation",
        "id": "a307da93-0850-4695-a904-33dfbdfbb3f5",
        "status": "final",
        "category": [
          {
            "coding": [
              {
                "system": "http://terminology.hl7.org/CodeSystem/observation-category",
                "code": "laboratory",
                "display": "Laboratory"
              }
            ]
          }
        ],
        "subject": {"display": "Example Patient"},
        "code": {
          "coding": [
            {
              "system": "http://argo.run/cgm/CodeSystem/cgm",
              "code": "mean-glucose",
              "display": "Mean Glucose"
            },
            {
              "system": "http://loinc.org",
              "code": "97507-8",
              "display": "Average glucose [Mass/volume] in Interstitial fluid during Reporting Period"
            }
          ]
        },
        "effectivePeriod": {
          "start": "2024-02-02",
          "end": "2024-05-02"
        },
        "valueQuantity": {
          "value": 100.19174041297936,
          "unit": "mg/dl",
          "system": "http://unitsofmeasure.org",
          "code": "mg/dL"
        }
      }
    },
    {
      "resource": {
        "resourceType": "Observation",
        "id": "9faa6e2b-8cea-4b77-9af3-8b1333f8f656",
        "status": "final",
        "category": [
          {
            "coding": [
              {
                "system": "http://terminology.hl7.org/CodeSystem/observation-category",
                "code": "laboratory",
                "display": "Laboratory"
              }
            ]
          }
        ],
        "subject": {"display": "Example Patient"},
        "code": {
          "coding": [
            {
              "system": "http://argo.run/cgm/CodeSystem/cgm",
              "code": "time-in-very-low",
              "display": "Time in Very Low Range"
            }
          ]
        },
        "effectivePeriod": {
          "start": "2024-02-02",
          "end": "2024-05-02"
        },
        "valueQuantity": {
          "value": 0.5589194224499302,
          "unit": "%",
          "system": "http://unitsofmeasure.org",
          "code": "%"
        }
      }
    },
    {
      "resource": {
        "resourceType": "Observation",
        "id": "0220441c-ff51-406c-ba91-97beab7d766c",
        "status": "final",
        "category": [
          {
            "coding": [
              {
                "system": "http://terminology.hl7.org/CodeSystem/observation-category",
                "code": "laboratory",
                "display": "Laboratory"
              }
            ]
          }
        ],
        "subject": {"display": "Example Patient"},
        "code": {
          "coding": [
            {
              "system": "http://argo.run/cgm/CodeSystem/cgm",
              "code": "time-in-low",
              "display": "Time in Low Range"
            }
          ]
        },
        "effectivePeriod": {
          "start": "2024-02-02",
          "end": "2024-05-02"
        },
        "valueQuantity": {
          "value": 1.5370284117373079,
          "unit": "%",
          "system": "http://unitsofmeasure.org",
          "code": "%"
        }
      }
    }
  ]
}
